File: Examples/TiO2_out.txt
Wavelength (nm),Absorbance,"Energy, eV",Direct transition,Indirect transition
190.0,6.383,6.52632,1735.35,6.45426
191.0,6.587,6.49215,1828.74,6.5394
192.0,6.923,6.45833,1999.08,6.68663
193.0,7.31,6.42487,2205.79,6.85316
194.0,7.121,6.39175,2071.68,6.74653
195.0,7.64,6.35897,2360.27,6.97012
196.0,8.003,6.32653,2563.52,7.11556
197.0,8.292,6.29442,2724.14,7.22449
198.0,8.225,6.26263,2653.29,7.17705
199.0,8.006,6.23116,2488.68,7.06305
200.0,7.956,6.2,2433.17,7.02333
201.0,7.899,6.16915,2374.63,6.9807
202.0,8.052,6.13861,2443.14,7.03051
203.0,8.12,6.10837,2460.16,7.04273
204.0,8.076,6.07843,2409.77,7.00638
205.0,8.392,6.04878,2576.72,7.1247
206.0,8.444,6.01942,2583.48,7.12937
207.0,8.355,5.99034,2504.93,7.07455
208.0,8.387,5.96154,2499.94,7.07103
209.0,8.478,5.93301,2530.1,7.09226
210.0,8.478,5.90476,2506.06,7.07535
211.0,8.405,5.87678,2439.8,7.02811
212.0,8.386,5.84906,2405.92,7.00358
213.0,8.537,5.8216,2469.99,7.04975
214.0,8.494,5.79439,2422.37,7.01552
215.0,8.396,5.76744,2344.83,6.9587
216.0,8.577,5.74074,2424.41,7.017
217.0,8.557,5.71429,2390.93,6.99265
218.0,8.538,5.68807,2358.54,6.96884
219.0,8.447,5.6621,2287.49,6.91576
220.0,8.455,5.63636,2271.04,6.90329
221.0,8.294,5.61086,2165.64,6.82176
222.0,8.387,5.58559,2194.58,6.84444
223.0,8.42,5.56054,2192.09,6.84249
224.0,8.343,5.53571,2133,6.79592
225.0,8.365,5.51111,2125.25,6.78973
226.0,8.31,5.48673,2078.88,6.75238
227.0,8.352,5.46256,2081.48,6.7545
228.0,8.341,5.4386,2057.83,6.73523
229.0,8.273,5.41485,2006.77,6.69306
230.0,8.246,5.3913,1976.4,6.66759
231.0,8.278,5.36797,1974.56,6.66603
232.0,8.193,5.34483,1917.58,6.61741
233.0,8.219,5.32189,1913.24,6.61367
234.0,8.221,5.29915,1897.85,6.60032
235.0,8.124,5.2766,1837.59,6.54729
236.0,8.133,5.25424,1826.08,6.53703
237.0,8.175,5.23207,1829.46,6.54004
238.0,8.158,5.21008,1806.58,6.5195
239.0,8.125,5.18828,1777.03,6.49267
240.0,8.144,5.16667,1770.5,6.4867
241.0,8.1,5.14523,1736.92,6.45572
242.0,8.036,5.12397,1695.48,6.41687
243.0,8.068,5.10288,1694.97,6.41639
244.0,7.991,5.08197,1649.17,6.3726
245.0,7.949,5.06122,1618.59,6.34284
246.0,8.022,5.04065,1635.08,6.35894
247.0,8.003,5.02024,1614.19,6.33853
248.0,7.956,5.0,1582.45,6.30714
249.0,7.981,4.97992,1579.64,6.30434
250.0,8.029,4.96,1585.94,6.31061
251.0,7.981,4.94024,1554.57,6.27918
252.0,7.922,4.92063,1519.54,6.2435
253.0,7.931,4.90119,1510.98,6.23469
254.0,7.989,4.88189,1521.11,6.24511
255.0,7.935,4.86275,1488.87,6.21175
256.0,7.891,4.84375,1460.92,6.1824
257.0,7.953,4.8249,1472.45,6.19455
258.0,7.975,4.8062,1469.15,6.19108
259.0,7.989,4.78764,1462.95,6.18454
260.0,7.989,4.76923,1451.72,6.17263
261.0,8.018,4.75096,1451.09,6.17197
262.0,8.063,4.73282,1456.24,6.17744
263.0,8.049,4.71483,1440.18,6.16033
264.0,8.018,4.69697,1418.3,6.1368
265.0,8.024,4.67925,1409.72,6.1275
266.0,8.072,4.66165,1415.93,6.13424
267.0,8.104,4.64419,1416.51,6.13486
268.0,8.14,4.62687,1418.48,6.13699
269.0,8.164,4.60967,1416.27,6.1346
270.0,8.109,4.59259,1386.92,6.10257
271.0,8.136,4.57565,1385.88,6.10143
272.0,8.106,4.55882,1365.59,6.07897
273.0,8.136,4.54212,1365.65,6.07904
274.0,8.135,4.52555,1355.37,6.06756
275.0,8.193,4.50909,1364.78,6.07807
276.0,8.196,4.49275,1355.9,6.06816
277.0,8.2,4.47653,1347.45,6.05868
278.0,8.179,4.46043,1330.93,6.04002
279.0,8.227,4.44444,1336.96,6.04685
280.0,8.235,4.42857,1330.01,6.03898
281.0,8.259,4.41281,1328.27,6.037
282.0,8.244,4.39716,1314.08,6.02081
283.0,8.297,4.38163,1321.64,6.02946
284.0,8.283,4.3662,1307.92,6.01375
285.0,8.332,4.35088,1314.17,6.02092
286.0,8.385,4.33566,1321.65,6.02947
287.0,8.363,4.32056,1305.58,6.01106
288.0,8.389,4.30556,1304.6,6.00993
289.0,8.403,4.29066,1299.92,6.00453
290.0,8.396,4.27586,1288.82,5.99167
291.0,8.442,4.26117,1294.04,5.99773
292.0,8.492,4.24658,1300.46,6.00516
293.0,8.475,4.23208,1286.43,5.9889
294.0,8.494,4.21769,1283.43,5.9854
295.0,8.534,4.20339,1286.78,5.9893
296.0,8.578,4.18919,1291.31,5.99457
297.0,8.582,4.17508,1283.83,5.98586
298.0,8.61,4.16107,1283.56,5.98555
299.0,8.616,4.14716,1276.77,5.97762
300.0,8.667,4.13333,1283.33,5.98528
301.0,8.686,4.1196,1280.41,5.98188
302.0,8.75,4.10596,1290.76,5.99393
303.0,8.747,4.09241,1281.38,5.983
304.0,8.733,4.07895,1268.89,5.96837
305.0,8.719,4.06557,1256.54,5.9538
306.0,8.818,4.05229,1276.85,5.97771
307.0,8.839,4.03909,1274.6,5.97507
308.0,8.947,4.02597,1297.47,6.0017
309.0,8.848,4.01294,1260.71,5.95874
310.0,8.783,4.0,1234.26,5.92723
311.0,8.793,3.98714,1229.13,5.92106
312.0,8.828,3.97436,1231,5.92331
313.0,8.896,3.96166,1242.06,5.93658
314.0,8.881,3.94904,1230.01,5.92212
315.0,8.923,3.93651,1233.8,5.92667
316.0,8.938,3.92405,1230.13,5.92226
317.0,8.889,3.91167,1209.01,5.89668
318.0,8.915,3.89937,1208.46,5.89601
319.0,8.975,3.88715,1217.11,5.90653
320.0,8.899,3.875,1189.12,5.87228
321.0,8.848,3.86293,1168.22,5.8463
322.0,8.842,3.85093,1159.4,5.83523
323.0,8.844,3.83901,1152.75,5.82685
324.0,8.834,3.82716,1143.06,5.81456
325.0,8.85,3.81538,1140.15,5.81087
326.0,8.802,3.80368,1120.91,5.78619
327.0,8.821,3.79205,1118.88,5.78357
328.0,8.732,3.78049,1089.74,5.74554
329.0,8.712,3.769,1078.17,5.73023
330.0,8.676,3.75758,1062.81,5.7097
331.0,8.653,3.74622,1050.8,5.69351
332.0,8.607,3.73494,1033.41,5.6698
333.0,8.53,3.72372,1008.91,5.6359
334.0,8.476,3.71257,990.221,5.60962
335.0,8.444,3.70149,976.9,5.59065
336.0,8.377,3.69048,955.745,5.56014
337.0,8.282,3.67953,928.654,5.52031
338.0,8.147,3.66864,893.317,5.46703
339.0,8.055,3.65782,868.111,5.42805
340.0,7.977,3.64706,846.379,5.39375
341.0,7.788,3.63636,802.022,5.32165
342.0,7.688,3.62573,776.994,5.27964
343.0,7.57,3.61516,748.94,5.23133
344.0,7.361,3.60465,704.045,5.1511
345.0,7.147,3.5942,659.861,5.06831
346.0,6.98,3.58382,625.752,5.0015
347.0,6.796,3.57349,589.782,4.92802
348.0,6.58,3.56322,549.714,4.8421
349.0,6.31,3.55301,502.633,4.73492
350.0,6.081,3.54286,464.149,4.64156
351.0,5.81,3.53276,421.29,4.53049
352.0,5.524,3.52273,378.674,4.4113
353.0,5.283,3.51275,344.394,4.30788
354.0,5.055,3.50282,313.53,4.20794
355.0,4.773,3.49296,277.952,4.08312
356.0,4.501,3.48315,245.788,3.9595
357.0,4.261,3.47339,219.043,3.84709
358.0,4.039,3.46369,195.715,3.7403
359.0,3.817,3.45404,173.82,3.63099
360.0,3.603,3.44444,154.016,3.52283
361.0,3.404,3.4349,136.712,3.41942
362.0,3.208,3.42541,120.752,3.31493
363.0,3.019,3.41598,106.355,3.21136
364.0,2.846,3.40659,93.9962,3.11371
365.0,2.676,3.39726,82.6475,3.01514
366.0,2.536,3.38798,73.821,2.9312
367.0,2.398,3.37875,65.6462,2.84644
368.0,2.255,3.36957,57.7352,2.75651
369.0,2.132,3.36043,51.3293,2.67665
370.0,2.015,3.35135,45.6026,2.59865
371.0,1.884,3.34232,39.6513,2.50937
372.0,1.777,3.33333,35.0859,2.43379
373.0,1.662,3.3244,30.5273,2.35056
374.0,1.563,3.31551,26.8546,2.27643
375.0,1.466,3.30667,23.499,2.20172
376.0,1.372,3.29787,20.4727,2.12713
377.0,1.286,3.28912,17.8913,2.05665
378.0,1.2,3.28042,15.4961,1.98406
379.0,1.118,3.27177,13.3798,1.91255
380.0,1.039,3.26316,11.495,1.84131
381.0,0.963,3.25459,9.82304,1.77036
382.0,0.886,3.24607,8.2715,1.69588
383.0,0.815,3.2376,6.96243,1.62439
384.0,0.752,3.22917,5.8968,1.55831
385.0,0.693,3.22078,4.98182,1.49399
386.0,0.636,3.21244,4.17429,1.42937
387.0,0.585,3.20413,3.51345,1.36909
388.0,0.533,3.19588,2.90158,1.30514
389.0,0.484,3.18766,2.38032,1.24211
390.0,0.441,3.17949,1.96604,1.18413
391.0,0.398,3.17136,1.59315,1.12348
392.0,0.361,3.16327,1.30402,1.06862
393.0,0.326,3.15522,1.05802,1.0142
394.0,0.294,3.14721,0.856142,0.961914
395.0,0.264,3.13924,0.686842,0.910362
396.0,0.238,3.13131,0.555401,0.86328
397.0,0.212,3.12343,0.438464,0.813736
398.0,0.19,3.11558,0.350416,0.769389
399.0,0.17,3.10777,0.279123,0.726857
400.0,0.151,3.1,0.219118,0.684178
401.0,0.134,3.09227,0.171698,0.643711
402.0,0.12,3.08458,0.13701,0.608399
403.0,0.106,3.07692,0.106376,0.571099
404.0,0.093,3.06931,0.0814792,0.534271
405.0,0.082,3.06173,0.063032,0.501061
406.0,0.072,3.05419,0.0483567,0.468937
407.0,0.063,3.04668,0.0368414,0.438111
408.0,0.055,3.03922,0.0279414,0.408848
409.0,0.048,3.03178,0.0211777,0.381478
410.0,0.041,3.02439,0.015376,0.352136
411.0,0.036,3.01703,0.0117968,0.329565
412.0,0.031,3.00971,0.00870507,0.305452
413.0,0.027,3.00242,0.0065716,0.28472
414.0,0.023,2.99517,0.00474568,0.262467
415.0,0.02,2.98795,0.00357114,0.244457
416.0,0.017,2.98077,0.00256776,0.225107
417.0,0.014,2.97362,0.00173311,0.204036
418.0,0.012,2.96651,0.00126722,0.188675
419.0,0.01,2.95943,0.000875821,0.17203
420.0,0.009,2.95238,0.000706041,0.163007
421.0,0.007,2.94537,0.000425084,0.143588
422.0,0.006,2.93839,0.000310829,0.132779
423.0,0.005,2.93144,0.000214834,0.121067
424.0,0.004,2.92453,0.000136846,0.108158
425.0,0.003,2.91765,7.6614e-05,0.0935572
426.0,0.002,2.9108,3.3891e-05,0.0762994
427.0,0.002,2.90398,3.37324e-05,0.07621
428.0,0.001,2.8972,8.39375e-06,0.0538256
429.0,0.001,2.89044,8.35466e-06,0.0537628
430.0,0.001,2.88372,8.31585e-06,0.0537003
431.0,0.001,2.87703,8.2773e-06,0.053638
432.0,0.0,2.87037,0.0,0.0
433.0,0.0,2.86374,0.0,0.0
434.0,0.0,2.85714,0.0,0.0
435.0,0.0,2.85057,0.0,0.0
436.0,0.0,2.84404,0.0,0.0
437.0,0.0,2.83753,0.0,0.0
438.0,0.0,2.83105,0.0,0.0
439.0,0.0,2.8246,0.0,0.0
440.0,0.0,2.81818,0.0,0.0
441.0,0.0,2.81179,0.0,0.0
442.0,0.0,2.80543,0.0,0.0
443.0,0.0,2.7991,0.0,0.0
444.0,0.0,2.79279,0.0,0.0
445.0,0.0,2.78652,0.0,0.0
446.0,0.0,2.78027,0.0,0.0
447.0,0.001,2.77405,7.69535e-06,0.0526692
448.0,0.001,2.76786,7.66103e-06,0.0526104
449.0,0.001,2.76169,7.62695e-06,0.0525518
450.0,0.001,2.75556,7.59309e-06,0.0524934
451.0,0.001,2.74945,7.55945e-06,0.0524352
452.0,0.001,2.74336,7.52604e-06,0.0523771
453.0,0.001,2.73731,7.49285e-06,0.0523193
454.0,0.001,2.73128,7.45988e-06,0.0522616
455.0,0.001,2.72527,7.42712e-06,0.0522042
456.0,0.001,2.7193,7.39458e-06,0.0521469
457.0,0.001,2.71335,7.36226e-06,0.0520898
458.0,0.002,2.70742,2.93206e-05,0.0735856
459.0,0.002,2.70153,2.9193e-05,0.0735054
460.0,0.002,2.69565,2.90662e-05,0.0734255
461.0,0.002,2.6898,2.89402e-05,0.0733458
462.0,0.002,2.68398,2.88151e-05,0.0732664
463.0,0.002,2.67819,2.86907e-05,0.0731872
464.0,0.002,2.67241,2.85672e-05,0.0731083
465.0,0.002,2.66667,2.84444e-05,0.0730297
466.0,0.002,2.66094,2.83225e-05,0.0729513
467.0,0.002,2.65525,2.82013e-05,0.0728731
468.0,0.002,2.64957,2.80809e-05,0.0727952
469.0,0.002,2.64392,2.79613e-05,0.0727176
470.0,0.003,2.6383,6.26455e-05,0.0889657
471.0,0.003,2.6327,6.23798e-05,0.0888712
472.0,0.003,2.62712,6.21158e-05,0.088777
473.0,0.003,2.62156,6.18534e-05,0.0886831
474.0,0.003,2.61603,6.15927e-05,0.0885895
475.0,0.003,2.61053,6.13336e-05,0.0884962
476.0,0.003,2.60504,6.10762e-05,0.0884032
477.0,0.003,2.59958,6.08204e-05,0.0883105
478.0,0.003,2.59414,6.05662e-05,0.0882181
479.0,0.003,2.58873,6.03135e-05,0.0881259
480.0,0.003,2.58333,6.00625e-05,0.0880341
481.0,0.003,2.57796,5.9813e-05,0.0879425
482.0,0.003,2.57261,5.95651e-05,0.0878513
483.0,0.003,2.56729,5.93187e-05,0.0877603
484.0,0.003,2.56198,5.90738e-05,0.0876696
485.0,0.003,2.5567,5.88305e-05,0.0875791
486.0,0.003,2.55144,5.85886e-05,0.087489
487.0,0.003,2.5462,5.83483e-05,0.0873991
488.0,0.003,2.54098,5.81094e-05,0.0873095
489.0,0.003,2.53579,5.7872e-05,0.0872202
490.0,0.003,2.53061,5.7636e-05,0.0871311
491.0,0.004,2.52546,0.000102047,0.100508
492.0,0.004,2.52033,0.000101633,0.100406
493.0,0.004,2.51521,0.000101221,0.100304
494.0,0.004,2.51012,0.000100811,0.100202
495.0,0.004,2.50505,0.000100404,0.100101
496.0,0.004,2.5,0.0001,0.1
497.0,0.004,2.49497,9.9598e-05,0.0998993
498.0,0.004,2.48996,9.91984e-05,0.099799
499.0,0.004,2.48497,9.88012e-05,0.0996989
500.0,0.004,2.48,9.84064e-05,0.0995992
501.0,0.004,2.47505,9.8014e-05,0.0994997
502.0,0.004,2.47012,9.76238e-05,0.0994006
503.0,0.004,2.46521,9.72361e-05,0.0993017
504.0,0.004,2.46032,9.68506e-05,0.0992032
505.0,0.004,2.45545,9.64674e-05,0.0991049
506.0,0.004,2.45059,9.60865e-05,0.0990069
507.0,0.004,2.44576,9.57078e-05,0.0989092
508.0,0.004,2.44094,9.53314e-05,0.0988118
509.0,0.004,2.43615,9.49572e-05,0.0987147
510.0,0.004,2.43137,9.45852e-05,0.0986179
511.0,0.004,2.42661,9.42153e-05,0.0985214
512.0,0.004,2.421875,9.38477e-05,0.0984251
513.0,0.004,2.41715,9.34821e-05,0.0983291
514.0,0.004,2.41245,9.31187e-05,0.0982334
515.0,0.004,2.40777,9.27575e-05,0.098138
516.0,0.004,2.4031,9.23983e-05,0.0980429
517.0,0.004,2.39845,9.20412e-05,0.097948
518.0,0.004,2.39382,9.16862e-05,0.0978534
519.0,0.004,2.38921,9.13332e-05,0.0977591
520.0,0.004,2.38462,9.09822e-05,0.097665
521.0,0.004,2.38004,9.06333e-05,0.0975713
522.0,0.004,2.37548,9.02864e-05,0.0974778
523.0,0.004,2.37094,8.99415e-05,0.0973845
524.0,0.004,2.36641,8.95985e-05,0.0972916
525.0,0.004,2.3619,8.92575e-05,0.0971989
526.0,0.004,2.35741,8.89184e-05,0.0971064
527.0,0.004,2.35294,8.85813e-05,0.0970143
528.0,0.004,2.34848,8.82461e-05,0.0969223
529.0,0.004,2.34405,8.79128e-05,0.0968307
530.0,0.004,2.33962,8.75813e-05,0.0967393
531.0,0.004,2.33522,8.72518e-05,0.0966482
532.0,0.004,2.33083,8.69241e-05,0.0965573
533.0,0.004,2.32645,8.65982e-05,0.0964667
534.0,0.004,2.3221,8.62742e-05,0.0963763
535.0,0.004,2.31776,8.5952e-05,0.0962862
536.0,0.004,2.31343,8.56315e-05,0.0961963
537.0,0.004,2.30912,8.53129e-05,0.0961067
538.0,0.004,2.30483,8.49961e-05,0.0960173
539.0,0.004,2.30056,8.4681e-05,0.0959282
540.0,0.004,2.2963,8.43676e-05,0.0958394
541.0,0.004,2.29205,8.4056e-05,0.0957508
542.0,0.004,2.28782,8.37461e-05,0.0956624
543.0,0.004,2.28361,8.3438e-05,0.0955743
544.0,0.004,2.27941,8.31315e-05,0.0954864
545.0,0.004,2.27523,8.28267e-05,0.0953987
546.0,0.004,2.27106,8.25236e-05,0.0953113
547.0,0.004,2.26691,8.22221e-05,0.0952242
548.0,0.004,2.26277,8.19223e-05,0.0951372
549.0,0.004,2.25865,8.16241e-05,0.0950506
550.0,0.005,2.25455,0.000127074,0.106173
551.0,0.004,2.25045,8.10327e-05,0.0948779
552.0,0.005,2.24638,0.000126155,0.105981
553.0,0.004,2.24231,8.04476e-05,0.0947062
554.0,0.004,2.23827,8.01574e-05,0.0946207
555.0,0.005,2.23423,0.000124795,0.105694
556.0,0.004,2.23022,7.95818e-05,0.0944503
557.0,0.005,2.22621,0.0001239,0.105504
558.0,0.005,2.22222,0.000123457,0.105409
559.0,0.005,2.21825,0.000123015,0.105315
560.0,0.005,2.21429,0.000122577,0.105221
561.0,0.005,2.21034,0.00012214,0.105127
562.0,0.005,2.20641,0.000121706,0.105033
563.0,0.005,2.20249,0.000121274,0.10494
564.0,0.005,2.19858,0.000120844,0.104847
565.0,0.005,2.19469,0.000120417,0.104754
566.0,0.005,2.19081,0.000119992,0.104662
567.0,0.005,2.18695,0.000119569,0.104569
568.0,0.005,2.1831,0.000119148,0.104477
569.0,0.005,2.17926,0.00011873,0.104385
570.0,0.005,2.17544,0.000118313,0.104294
571.0,0.005,2.17163,0.000117899,0.104202
572.0,0.005,2.16783,0.000117487,0.104111
573.0,0.005,2.16405,0.000117078,0.10402
574.0,0.005,2.16028,0.00011667,0.10393
575.0,0.005,2.15652,0.000116265,0.103839
576.0,0.005,2.15278,0.000115861,0.103749
577.0,0.005,2.14905,0.00011546,0.103659
578.0,0.005,2.14533,0.000115061,0.10357
579.0,0.005,2.14162,0.000114664,0.10348
580.0,0.005,2.13793,0.000114269,0.103391
581.0,0.005,2.13425,0.000113876,0.103302
582.0,0.005,2.13058,0.000113485,0.103213
583.0,0.005,2.12693,0.000113096,0.103124
584.0,0.005,2.12329,0.000112709,0.103036
585.0,0.005,2.11966,0.000112324,0.102948
586.0,0.005,2.11604,0.000111941,0.10286
587.0,0.005,2.11244,0.00011156,0.102772
588.0,0.005,2.10884,0.000111181,0.102685
589.0,0.005,2.10526,0.000110803,0.102598
590.0,0.005,2.10169,0.000110428,0.102511
591.0,0.005,2.09814,0.000110055,0.102424
592.0,0.005,2.09459,0.000109683,0.102338
593.0,0.005,2.09106,0.000109314,0.102251
594.0,0.005,2.08754,0.000108946,0.102165
595.0,0.005,2.08403,0.00010858,0.102079
596.0,0.005,2.08054,0.000108216,0.101994
597.0,0.005,2.07705,0.000107854,0.101908
598.0,0.005,2.07358,0.000107493,0.101823
599.0,0.005,2.07012,0.000107135,0.101738
600.0,0.005,2.06667,0.000106778,0.101653
601.0,0.005,2.06323,0.000106423,0.101568
602.0,0.005,2.0598,0.000106069,0.101484
603.0,0.005,2.05638,0.000105718,0.1014
604.0,0.005,2.05298,0.000105368,0.101316
605.0,0.005,2.04959,0.00010502,0.101232
606.0,0.005,2.0462,0.000104674,0.101149
607.0,0.005,2.04283,0.000104329,0.101065
608.0,0.005,2.03947,0.000103986,0.100982
609.0,0.005,2.03612,0.000103645,0.100899
610.0,0.005,2.03279,0.000103306,0.100816
611.0,0.005,2.02946,0.000102968,0.100734
612.0,0.005,2.02614,0.000102631,0.100651
613.0,0.005,2.02284,0.000102297,0.100569
614.0,0.005,2.01954,0.000101964,0.100487
615.0,0.005,2.01626,0.000101633,0.100406
616.0,0.005,2.01299,0.000101303,0.100324
617.0,0.005,2.00972,0.000100975,0.100243
618.0,0.005,2.00647,0.000100648,0.100162
619.0,0.005,2.00323,0.000100323,0.100081
620.0,0.005,2.0,0.0001,0.1
621.0,0.005,1.99678,9.96782e-05,0.0999195
622.0,0.005,1.99357,9.93579e-05,0.0998391
623.0,0.005,1.99037,9.90392e-05,0.0997589
624.0,0.005,1.98718,9.87221e-05,0.099679
625.0,0.005,1.984,9.84064e-05,0.0995992
626.0,0.005,1.98083,9.80923e-05,0.0995196
627.0,0.005,1.97767,9.77796e-05,0.0994402
628.0,0.005,1.97452,9.74685e-05,0.099361
629.0,0.005,1.97138,9.71588e-05,0.099282
630.0,0.005,1.96825,9.68506e-05,0.0992032
631.0,0.005,1.96513,9.65439e-05,0.0991245
632.0,0.005,1.96203,9.62386e-05,0.0990461
633.0,0.005,1.95893,9.59348e-05,0.0989678
634.0,0.005,1.95584,9.56324e-05,0.0988897
635.0,0.005,1.95276,9.53314e-05,0.0988118
636.0,0.005,1.94969,9.50318e-05,0.0987341
637.0,0.005,1.94662,9.47337e-05,0.0986566
638.0,0.005,1.94357,9.4437e-05,0.0985792
639.0,0.005,1.94053,9.41416e-05,0.0985021
640.0,0.005,1.9375,9.38477e-05,0.0984251
641.0,0.005,1.93448,9.35551e-05,0.0983483
642.0,0.005,1.93146,9.32638e-05,0.0982717
643.0,0.005,1.92846,9.2974e-05,0.0981952
644.0,0.005,1.92547,9.26855e-05,0.098119
645.0,0.005,1.92248,9.23983e-05,0.0980429
646.0,0.005,1.9195,9.21125e-05,0.0979669
647.0,0.005,1.91654,9.18279e-05,0.0978912
648.0,0.005,1.91358,9.15447e-05,0.0978156
649.0,0.005,1.91063,9.12628e-05,0.0977403
650.0,0.005,1.90769,9.09822e-05,0.097665
651.0,0.005,1.90476,9.07029e-05,0.09759
652.0,0.005,1.90184,9.04249e-05,0.0975151
653.0,0.006,1.89893,0.000129813,0.106741
654.0,0.006,1.89602,0.000129417,0.106659
655.0,0.005,1.89313,8.95985e-05,0.0972916
656.0,0.005,1.89024,8.93256e-05,0.0972174
657.0,0.006,1.88737,0.000128238,0.106415
658.0,0.006,1.8845,0.000127848,0.106334
659.0,0.006,1.88164,0.00012746,0.106254
660.0,0.006,1.87879,0.000127074,0.106173
661.0,0.006,1.87595,0.00012669,0.106093
662.0,0.006,1.87311,0.000126308,0.106013
663.0,0.006,1.87029,0.000125927,0.105933
664.0,0.006,1.86747,0.000125548,0.105853
665.0,0.006,1.86466,0.000125171,0.105773
666.0,0.006,1.86186,0.000124795,0.105694
667.0,0.006,1.85907,0.000124421,0.105615
668.0,0.006,1.85629,0.000124049,0.105535
669.0,0.006,1.85351,0.000123678,0.105457
670.0,0.006,1.85075,0.000123309,0.105378
671.0,0.006,1.84799,0.000122942,0.105299
672.0,0.006,1.84524,0.000122577,0.105221
673.0,0.006,1.8425,0.000122213,0.105143
674.0,0.006,1.83976,0.00012185,0.105065
675.0,0.006,1.83704,0.000121489,0.104987
676.0,0.006,1.83432,0.00012113,0.104909
677.0,0.006,1.83161,0.000120773,0.104832
678.0,0.006,1.82891,0.000120417,0.104754
679.0,0.006,1.82622,0.000120062,0.104677
680.0,0.006,1.82353,0.000119709,0.1046
681.0,0.006,1.82085,0.000119358,0.104523
682.0,0.006,1.81818,0.000119008,0.104447
683.0,0.006,1.81552,0.00011866,0.10437
684.0,0.006,1.81287,0.000118313,0.104294
685.0,0.006,1.81022,0.000117968,0.104218
686.0,0.006,1.80758,0.000117624,0.104142
687.0,0.006,1.80495,0.000117282,0.104066
688.0,0.006,1.80233,0.000116942,0.10399
689.0,0.006,1.79971,0.000116602,0.103915
690.0,0.006,1.7971,0.000116265,0.103839
691.0,0.006,1.7945,0.000115928,0.103764
692.0,0.006,1.79191,0.000115594,0.103689
693.0,0.006,1.78932,0.00011526,0.103614
694.0,0.006,1.78674,0.000114928,0.10354
695.0,0.006,1.78417,0.000114598,0.103465
696.0,0.006,1.78161,0.000114269,0.103391
697.0,0.006,1.77905,0.000113941,0.103317
698.0,0.006,1.7765,0.000113615,0.103243
699.0,0.006,1.77396,0.00011329,0.103169
700.0,0.006,1.77143,0.000112967,0.103095
701.0,0.006,1.7689,0.000112644,0.103021
702.0,0.006,1.76638,0.000112324,0.102948
703.0,0.006,1.76387,0.000112004,0.102875
704.0,0.006,1.76136,0.000111686,0.102802
705.0,0.006,1.75887,0.00011137,0.102729
706.0,0.006,1.75637,0.000111055,0.102656
707.0,0.006,1.75389,0.000110741,0.102583
708.0,0.006,1.75141,0.000110428,0.102511
709.0,0.006,1.74894,0.000110117,0.102439
710.0,0.006,1.74648,0.000109807,0.102366
711.0,0.006,1.74402,0.000109498,0.102294
712.0,0.006,1.74157,0.000109191,0.102222
713.0,0.006,1.73913,0.000108885,0.102151
714.0,0.006,1.73669,0.00010858,0.102079
715.0,0.006,1.73427,0.000108276,0.102008
716.0,0.006,1.73184,0.000107974,0.101937
717.0,0.006,1.72943,0.000107673,0.101865
718.0,0.006,1.72702,0.000107373,0.101794
719.0,0.006,1.72462,0.000107075,0.101724
720.0,0.006,1.72222,0.000106778,0.101653
721.0,0.006,1.71983,0.000106482,0.101582
722.0,0.006,1.71745,0.000106187,0.101512
723.0,0.006,1.71508,0.000105893,0.101442
724.0,0.006,1.71271,0.000105601,0.101372
725.0,0.006,1.71034,0.00010531,0.101302
726.0,0.006,1.70799,0.00010502,0.101232
727.0,0.006,1.70564,0.000104731,0.101162
728.0,0.006,1.7033,0.000104444,0.101093
729.0,0.006,1.70096,0.000104158,0.101024
730.0,0.006,1.69863,0.000103872,0.100954
731.0,0.006,1.69631,0.000103588,0.100885
732.0,0.006,1.69399,0.000103306,0.100816
733.0,0.006,1.69168,0.000103024,0.100748
734.0,0.006,1.68937,0.000102743,0.100679
735.0,0.006,1.68707,0.000102464,0.10061
736.0,0.006,1.68478,0.000102186,0.100542
737.0,0.006,1.6825,0.000101909,0.100474
738.0,0.006,1.68022,0.000101633,0.100406
739.0,0.005,1.67794,7.03873e-05,0.0915954
740.0,0.006,1.67568,0.000101084,0.10027
741.0,0.005,1.67341,7.00079e-05,0.0914717
742.0,0.005,1.67116,6.98193e-05,0.09141
743.0,0.006,1.66891,0.000100269,0.100067
744.0,0.005,1.66667,6.94444e-05,0.0912871
745.0,0.005,1.66443,6.92581e-05,0.0912258
746.0,0.006,1.6622,9.94645e-05,0.0998659
747.0,0.006,1.65997,9.91984e-05,0.099799
748.0,0.006,1.65775,9.89333e-05,0.0997323
749.0,0.005,1.65554,6.85204e-05,0.0909819
750.0,0.005,1.65333,6.83378e-05,0.0909212
751.0,0.005,1.65113,6.81559e-05,0.0908607
752.0,0.005,1.64894,6.79748e-05,0.0908002
753.0,0.006,1.64675,9.76238e-05,0.0994006
754.0,0.006,1.64456,9.73651e-05,0.0993347
755.0,0.005,1.64238,6.74356e-05,0.0906196
756.0,0.005,1.64021,6.72574e-05,0.0905597
757.0,0.005,1.63804,6.70798e-05,0.0904999
758.0,0.005,1.63588,6.69029e-05,0.0904401
759.0,0.005,1.63373,6.67267e-05,0.0903805
760.0,0.005,1.63158,6.65512e-05,0.0903211
761.0,0.005,1.62943,6.63765e-05,0.0902617
762.0,0.005,1.6273,6.62024e-05,0.0902025
763.0,0.005,1.62516,6.60289e-05,0.0901433
764.0,0.005,1.62304,6.58562e-05,0.0900843
765.0,0.005,1.62092,6.56841e-05,0.0900254
766.0,0.005,1.6188,6.55128e-05,0.0899666
767.0,0.005,1.61669,6.5342e-05,0.089908
768.0,0.005,1.61458,6.5172e-05,0.0898494
769.0,0.005,1.61248,6.50026e-05,0.089791
770.0,0.005,1.61039,6.48339e-05,0.0897326
771.0,0.005,1.6083,6.46658e-05,0.0896744
772.0,0.005,1.60622,6.44984e-05,0.0896163
773.0,0.005,1.60414,6.43316e-05,0.0895584
774.0,0.005,1.60207,6.41655e-05,0.0895005
775.0,0.005,1.6,6.4e-05,0.0894427
776.0,0.005,1.59794,6.38352e-05,0.0893851
777.0,0.005,1.59588,6.3671e-05,0.0893275
778.0,0.005,1.59383,6.35074e-05,0.0892701
779.0,0.005,1.59178,6.33444e-05,0.0892128
780.0,0.005,1.58974,6.31821e-05,0.0891556
781.0,0.005,1.58771,6.30204e-05,0.0890985
782.0,0.005,1.58568,6.28593e-05,0.0890415
783.0,0.005,1.58365,6.26989e-05,0.0889846
784.0,0.005,1.58163,6.2539e-05,0.0889279
785.0,0.005,1.57962,6.23798e-05,0.0888712
786.0,0.005,1.57761,6.22212e-05,0.0888146
787.0,0.005,1.5756,6.20632e-05,0.0887582
788.0,0.005,1.5736,6.19057e-05,0.0887019
789.0,0.005,1.57161,6.17489e-05,0.0886456
790.0,0.005,1.56962,6.15927e-05,0.0885895
791.0,0.005,1.56764,6.14371e-05,0.0885335
792.0,0.005,1.56566,6.1282e-05,0.0884776
793.0,0.005,1.56368,6.11276e-05,0.0884218
794.0,0.005,1.56171,6.09737e-05,0.0883661
795.0,0.005,1.55975,6.08204e-05,0.0883105
796.0,0.005,1.55779,6.06677e-05,0.088255
797.0,0.005,1.55583,6.05155e-05,0.0881996
798.0,0.005,1.55388,6.03639e-05,0.0881443
799.0,0.005,1.55194,6.02129e-05,0.0880892
800.0,0.005,1.55,6.00625e-05,0.0880341
801.0,0.005,1.54806,5.99126e-05,0.0879791
802.0,0.005,1.54613,5.97633e-05,0.0879242
803.0,0.005,1.54421,5.96146e-05,0.0878695
804.0,0.005,1.54229,5.94663e-05,0.0878148
805.0,0.005,1.54037,5.93187e-05,0.0877603
806.0,0.005,1.53846,5.91716e-05,0.0877058
807.0,0.005,1.53656,5.9025e-05,0.0876514
808.0,0.005,1.53465,5.8879e-05,0.0875972
809.0,0.005,1.53276,5.87336e-05,0.087543
810.0,0.005,1.53086,5.85886e-05,0.087489
811.0,0.005,1.52898,5.84442e-05,0.087435
812.0,0.005,1.52709,5.83004e-05,0.0873812
813.0,0.005,1.52522,5.8157e-05,0.0873274
814.0,0.005,1.52334,5.80142e-05,0.0872738
815.0,0.005,1.52147,5.7872e-05,0.0872202
816.0,0.005,1.51961,5.77302e-05,0.0871667
817.0,0.005,1.51775,5.7589e-05,0.0871134
818.0,0.005,1.51589,5.74482e-05,0.0870601
819.0,0.005,1.51404,5.7308e-05,0.0870069
820.0,0.005,1.5122,5.71684e-05,0.0869539
821.0,0.005,1.51035,5.70292e-05,0.0869009
822.0,0.005,1.50852,5.68905e-05,0.086848
823.0,0.005,1.50668,5.67523e-05,0.0867952
824.0,0.005,1.50485,5.66147e-05,0.0867426
825.0,0.005,1.50303,5.64775e-05,0.08669
826.0,0.005,1.50121,5.63408e-05,0.0866375
827.0,0.005,1.4994,5.62047e-05,0.0865851
828.0,0.005,1.49758,5.6069e-05,0.0865328
829.0,0.005,1.49578,5.59338e-05,0.0864806
830.0,0.005,1.49398,5.57991e-05,0.0864285
831.0,0.005,1.49218,5.56649e-05,0.0863764
832.0,0.005,1.49038,5.55312e-05,0.0863245
833.0,0.005,1.4886,5.53979e-05,0.0862727
834.0,0.005,1.48681,5.52651e-05,0.086221
835.0,0.005,1.48503,5.51328e-05,0.0861693
836.0,0.005,1.48325,5.5001e-05,0.0861178
837.0,0.005,1.48148,5.48697e-05,0.0860663
838.0,0.005,1.47971,5.47388e-05,0.0860149
839.0,0.005,1.47795,5.46084e-05,0.0859637
840.0,0.005,1.47619,5.44785e-05,0.0859125
841.0,0.005,1.47444,5.4349e-05,0.0858614
842.0,0.005,1.47268,5.422e-05,0.0858104
843.0,0.005,1.47094,5.40914e-05,0.0857595
844.0,0.005,1.46919,5.39633e-05,0.0857086
845.0,0.004,1.46746,3.44548e-05,0.0766148
846.0,0.005,1.46572,5.37085e-05,0.0856073
847.0,0.005,1.46399,5.35817e-05,0.0855567
848.0,0.005,1.46226,5.34554e-05,0.0855063
849.0,0.005,1.46054,5.33296e-05,0.0854559
850.0,0.005,1.45882,5.32042e-05,0.0854056
851.0,0.005,1.45711,5.30792e-05,0.0853554
852.0,0.005,1.4554,5.29547e-05,0.0853053
853.0,0.004,1.45369,3.38116e-05,0.0762546
854.0,0.005,1.45199,5.27069e-05,0.0852054
855.0,0.005,1.45029,5.25837e-05,0.0851555
856.0,0.005,1.4486,5.24609e-05,0.0851058
857.0,0.005,1.44691,5.23386e-05,0.0850561
858.0,0.005,1.44522,5.22166e-05,0.0850065
859.0,0.005,1.44354,5.20951e-05,0.084957
860.0,0.005,1.44186,5.1974e-05,0.0849076
861.0,0.005,1.44019,5.18534e-05,0.0848583
862.0,0.005,1.43852,5.17331e-05,0.0848091
863.0,0.005,1.43685,5.16133e-05,0.0847599
864.0,0.005,1.43519,5.14939e-05,0.0847108
865.0,0.005,1.43353,5.13749e-05,0.0846619
866.0,0.004,1.43187,3.28041e-05,0.0756801
867.0,0.004,1.43022,3.27284e-05,0.0756365
868.0,0.004,1.42857,3.26531e-05,0.0755929
869.0,0.005,1.42693,5.09031e-05,0.0844668
870.0,0.004,1.42529,3.25031e-05,0.075506
871.0,0.004,1.42365,3.24285e-05,0.0754626
872.0,0.005,1.42202,5.05534e-05,0.0843214
873.0,0.004,1.42039,3.22801e-05,0.0753761
874.0,0.003,1.41876,1.8116e-05,0.0652403
875.0,0.004,1.41714,3.21327e-05,0.0752899
876.0,0.004,1.41553,3.20594e-05,0.0752469
877.0,0.004,1.41391,3.19863e-05,0.075204
878.0,0.004,1.4123,3.19135e-05,0.0751612
879.0,0.004,1.41069,3.18409e-05,0.0751184
880.0,0.003,1.40909,1.78698e-05,0.0650175
881.0,0.003,1.40749,1.78293e-05,0.0649806
882.0,0.004,1.4059,3.16247e-05,0.0749906
883.0,0.004,1.4043,3.15531e-05,0.0749481
884.0,0.006,1.40271,7.08339e-05,0.0917403
885.0,0.005,1.40113,4.90791e-05,0.0836998
886.0,0.005,1.39955,4.89684e-05,0.0836525
887.0,0.003,1.39797,1.75889e-05,0.0647604
888.0,0.002,1.3964,7.79969e-06,0.0528469
889.0,0.004,1.39483,3.11286e-05,0.0746947
890.0,0.003,1.39326,1.74705e-05,0.0646512
891.0,0.004,1.39169,3.0989e-05,0.0746108
892.0,0.004,1.39013,3.09196e-05,0.074569
893.0,0.004,1.38858,3.08504e-05,0.0745273
894.0,0.003,1.38702,1.73145e-05,0.0645064
895.0,0.005,1.38547,4.79885e-05,0.0832308
896.0,0.006,1.38393,6.89493e-05,0.0911239
897.0,0.007,1.38239,9.36385e-05,0.0983702
898.0,0.005,1.38085,4.76684e-05,0.0830917
899.0,0.002,1.37931,7.60999e-06,0.0525226
900.0,0.003,1.37778,1.70844e-05,0.064291