File: Examples/TiO2.txt
Wavelength (nm),Absorbance
190.0,6.383
190.5,6.703
191.0,6.587
191.5,6.847
192.0,6.923
192.5,7.291
193.0,7.310
193.5,6.931
194.0,7.121
194.5,7.357
195.0,7.640
195.5,7.815
196.0,8.003
196.5,8.241
197.0,8.292
197.5,8.392
198.0,8.225
198.5,8.100
199.0,8.006
199.5,8.065
200.0,7.956
200.5,7.899
201.0,7.899
201.5,7.985
202.0,8.052
202.5,8.139
203.0,8.120
203.5,8.073
204.0,8.076
204.5,8.198
205.0,8.392
205.5,8.511
206.0,8.444
206.5,8.440
207.0,8.355
207.5,8.399
208.0,8.387
208.5,8.430
209.0,8.478
209.5,8.462
210.0,8.478
210.5,8.445
211.0,8.405
211.5,8.392
212.0,8.386
212.5,8.458
213.0,8.537
213.5,8.563
214.0,8.494
214.5,8.414
215.0,8.396
215.5,8.451
216.0,8.577
216.5,8.610
217.0,8.557
217.5,8.525
218.0,8.538
218.5,8.508
219.0,8.447
219.5,8.425
220.0,8.455
220.5,8.352
221.0,8.294
221.5,8.298
222.0,8.387
222.5,8.470
223.0,8.420
223.5,8.401
224.0,8.343
224.5,8.379
225.0,8.365
225.5,8.337
226.0,8.310
226.5,8.352
227.0,8.352
227.5,8.313
228.0,8.341
228.5,8.280
229.0,8.273
229.5,8.177
230.0,8.246
230.5,8.237
231.0,8.278
231.5,8.203
232.0,8.193
232.5,8.165
233.0,8.219
233.5,8.276
234.0,8.221
234.5,8.168
235.0,8.124
235.5,8.111
236.0,8.133
236.5,8.144
237.0,8.175
237.5,8.170
238.0,8.158
238.5,8.115
239.0,8.125
239.5,8.124
240.0,8.144
240.5,8.114
241.0,8.100
241.5,8.059
242.0,8.036
242.5,8.044
243.0,8.068
243.5,8.068
244.0,7.991
244.5,7.939
245.0,7.949
245.5,7.972
246.0,8.022
246.5,8.010
247.0,8.003
247.5,7.972
248.0,7.956
248.5,7.956
249.0,7.981
249.5,7.984
250.0,8.029
250.5,8.006
251.0,7.981
251.5,7.945
252.0,7.922
252.5,7.905
253.0,7.931
253.5,7.977
254.0,7.989
254.5,7.968
255.0,7.935
255.5,7.954
256.0,7.891
256.5,7.929
257.0,7.953
257.5,7.989
258.0,7.975
258.5,7.971
259.0,7.989
259.5,7.991
260.0,7.989
260.5,7.980
261.0,8.018
261.5,8.044
262.0,8.063
262.5,8.075
263.0,8.049
263.5,8.081
264.0,8.018
264.5,8.037
265.0,8.024
265.5,8.071
266.0,8.072
266.5,8.100
267.0,8.104
267.5,8.107
268.0,8.140
268.5,8.151
269.0,8.164
269.5,8.090
270.0,8.109
270.5,8.120
271.0,8.136
271.5,8.101
272.0,8.106
272.5,8.138
273.0,8.136
273.5,8.148
274.0,8.135
274.5,8.173
275.0,8.193
275.5,8.195
276.0,8.196
276.5,8.196
277.0,8.200
277.5,8.221
278.0,8.179
278.5,8.215
279.0,8.227
279.5,8.252
280.0,8.235
280.5,8.212
281.0,8.259
281.5,8.258
282.0,8.244
282.5,8.232
283.0,8.297
283.5,8.291
284.0,8.283
284.5,8.269
285.0,8.332
285.5,8.372
286.0,8.385
286.5,8.377
287.0,8.363
287.5,8.389
288.0,8.389
288.5,8.406
289.0,8.403
289.5,8.415
290.0,8.396
290.5,8.410
291.0,8.442
291.5,8.471
292.0,8.492
292.5,8.469
293.0,8.475
293.5,8.484
294.0,8.494
294.5,8.522
295.0,8.534
295.5,8.547
296.0,8.578
296.5,8.547
297.0,8.582
297.5,8.587
298.0,8.610
298.5,8.621
299.0,8.616
299.5,8.641
300.0,8.667
300.5,8.666
301.0,8.686
301.5,8.712
302.0,8.750
302.5,8.740
303.0,8.747
303.5,8.730
304.0,8.733
304.5,8.721
305.0,8.719
305.5,8.764
306.0,8.818
306.5,8.856
307.0,8.839
307.5,8.883
308.0,8.947
308.5,8.946
309.0,8.848
309.5,8.797
310.0,8.783
310.5,8.825
311.0,8.793
311.5,8.833
312.0,8.828
312.5,8.892
313.0,8.896
313.5,8.903
314.0,8.881
314.5,8.877
315.0,8.923
315.5,8.943
316.0,8.938
316.5,8.914
317.0,8.889
317.5,8.922
318.0,8.915
318.5,8.968
319.0,8.975
319.5,8.954
320.0,8.899
320.5,8.839
321.0,8.848
321.5,8.812
322.0,8.842
322.5,8.814
323.0,8.844
323.5,8.822
324.0,8.834
324.5,8.846
325.0,8.850
325.5,8.820
326.0,8.802
326.5,8.814
327.0,8.821
327.5,8.769
328.0,8.732
328.5,8.712
329.0,8.712
329.5,8.686
330.0,8.676
330.5,8.680
331.0,8.653
331.5,8.601
332.0,8.607
332.5,8.561
333.0,8.530
333.5,8.475
334.0,8.476
334.5,8.479
335.0,8.444
335.5,8.410
336.0,8.377
336.5,8.359
337.0,8.282
337.5,8.223
338.0,8.147
338.5,8.105
339.0,8.055
339.5,8.008
340.0,7.977
340.5,7.884
341.0,7.788
341.5,7.714
342.0,7.688
342.5,7.637
343.0,7.570
343.5,7.466
344.0,7.361
344.5,7.269
345.0,7.147
345.5,7.075
346.0,6.980
346.5,6.900
347.0,6.796
347.5,6.673
348.0,6.580
348.5,6.429
349.0,6.310
349.5,6.182
350.0,6.081
350.5,5.954
351.0,5.810
351.5,5.664
352.0,5.524
352.5,5.395
353.0,5.283
353.5,5.183
354.0,5.055
354.5,4.927
355.0,4.773
355.5,4.646
356.0,4.501
356.5,4.377
357.0,4.261
357.5,4.157
358.0,4.039
358.5,3.929
359.0,3.817
359.5,3.711
360.0,3.603
360.5,3.496
361.0,3.404
361.5,3.303
362.0,3.208
362.5,3.105
363.0,3.019
363.5,2.928
364.0,2.846
364.5,2.753
365.0,2.676
365.5,2.602
366.0,2.536
366.5,2.468
367.0,2.398
367.5,2.324
368.0,2.255
368.5,2.188
369.0,2.132
369.5,2.078
370.0,2.015
370.5,1.949
371.0,1.884
371.5,1.832
372.0,1.777
372.5,1.720
373.0,1.662
373.5,1.610
374.0,1.563
374.5,1.515
375.0,1.466
375.5,1.418
376.0,1.372
376.5,1.329
377.0,1.286
377.5,1.242
378.0,1.200
378.5,1.157
379.0,1.118
379.5,1.077
380.0,1.039
380.5,1.000
381.0,0.963
381.5,0.924
382.0,0.886
382.5,0.849
383.0,0.815
383.5,0.784
384.0,0.752
384.5,0.722
385.0,0.693
385.5,0.664
386.0,0.636
386.5,0.611
387.0,0.585
387.5,0.560
388.0,0.533
388.5,0.508
389.0,0.484
389.5,0.462
390.0,0.441
390.5,0.419
391.0,0.398
391.5,0.379
392.0,0.361
392.5,0.343
393.0,0.326
393.5,0.310
394.0,0.294
394.5,0.278
395.0,0.264
395.5,0.250
396.0,0.238
396.5,0.224
397.0,0.212
397.5,0.201
398.0,0.190
398.5,0.180
399.0,0.170
399.5,0.160
400.0,0.151
400.5,0.143
401.0,0.134
401.5,0.127
402.0,0.120
402.5,0.113
403.0,0.106
403.5,0.099
404.0,0.093
404.5,0.087
405.0,0.082
405.5,0.077
406.0,0.072
406.5,0.067
407.0,0.063
407.5,0.058
408.0,0.055
408.5,0.051
409.0,0.048
409.5,0.045
410.0,0.041
410.5,0.038
411.0,0.036
411.5,0.033
412.0,0.031
412.5,0.029
413.0,0.027
413.5,0.025
414.0,0.023
414.5,0.021
415.0,0.020
415.5,0.018
416.0,0.017
416.5,0.015
417.0,0.014
417.5,0.013
418.0,0.012
418.5,0.011
419.0,0.010
419.5,0.009
420.0,0.009
420.5,0.008
421.0,0.007
421.5,0.006
422.0,0.006
422.5,0.005
423.0,0.005
423.5,0.004
424.0,0.004
424.5,0.003
425.0,0.003
425.5,0.003
426.0,0.002
426.5,0.002
427.0,0.002
427.5,0.002
428.0,0.001
428.5,0.001
429.0,0.001
429.5,0.001
430.0,0.001
430.5,0.001
431.0,0.001
431.5,0.000
432.0,0.000
432.5,0.000
433.0,0.000
433.5,0.000
434.0,0.000
434.5,0.000
435.0,0.000
435.5,0.000
436.0,0.000
436.5,0.000
437.0,0.000
437.5,0.000
438.0,0.000
438.5,0.000
439.0,0.000
439.5,0.000
440.0,0.000
440.5,0.000
441.0,0.000
441.5,0.000
442.0,0.000
442.5,0.000
443.0,0.000
443.5,0.000
444.0,0.000
444.5,0.000
445.0,0.000
445.5,0.000
446.0,0.000
446.5,0.001
447.0,0.001
447.5,0.001
448.0,0.001
448.5,0.001
449.0,0.001
449.5,0.001
450.0,0.001
450.5,0.001
451.0,0.001
451.5,0.001
452.0,0.001
452.5,0.001
453.0,0.001
453.5,0.001
454.0,0.001
454.5,0.001
455.0,0.001
455.5,0.001
456.0,0.001
456.5,0.001
457.0,0.001
457.5,0.002
458.0,0.002
458.5,0.002
459.0,0.002
459.5,0.002
460.0,0.002
460.5,0.002
461.0,0.002
461.5,0.002
462.0,0.002
462.5,0.002
463.0,0.002
463.5,0.002
464.0,0.002
464.5,0.002
465.0,0.002
465.5,0.002
466.0,0.002
466.5,0.002
467.0,0.002
467.5,0.002
468.0,0.002
468.5,0.002
469.0,0.002
469.5,0.002
470.0,0.003
470.5,0.003
471.0,0.003
471.5,0.003
472.0,0.003
472.5,0.003
473.0,0.003
473.5,0.003
474.0,0.003
474.5,0.003
475.0,0.003
475.5,0.003
476.0,0.003
476.5,0.003
477.0,0.003
477.5,0.003
478.0,0.003
478.5,0.003
479.0,0.003
479.5,0.003
480.0,0.003
480.5,0.003
481.0,0.003
481.5,0.003
482.0,0.003
482.5,0.003
483.0,0.003
483.5,0.003
484.0,0.003
484.5,0.003
485.0,0.003
485.5,0.003
486.0,0.003
486.5,0.003
487.0,0.003
487.5,0.003
488.0,0.003
488.5,0.003
489.0,0.003
489.5,0.003
490.0,0.003
490.5,0.003
491.0,0.004
491.5,0.004
492.0,0.004
492.5,0.004
493.0,0.004
493.5,0.004
494.0,0.004
494.5,0.004
495.0,0.004
495.5,0.004
496.0,0.004
496.5,0.004
497.0,0.004
497.5,0.004
498.0,0.004
498.5,0.004
499.0,0.004
499.5,0.004
500.0,0.004
500.5,0.004
501.0,0.004
501.5,0.004
502.0,0.004
502.5,0.004
503.0,0.004
503.5,0.004
504.0,0.004
504.5,0.004
505.0,0.004
505.5,0.004
506.0,0.004
506.5,0.004
507.0,0.004
507.5,0.004
508.0,0.004
508.5,0.004
509.0,0.004
509.5,0.004
510.0,0.004
510.5,0.004
511.0,0.004
511.5,0.004
512.0,0.004
512.5,0.004
513.0,0.004
513.5,0.004
514.0,0.004
514.5,0.004
515.0,0.004
515.5,0.004
516.0,0.004
516.5,0.004
517.0,0.004
517.5,0.004
518.0,0.004
518.5,0.004
519.0,0.004
519.5,0.004
520.0,0.004
520.5,0.004
521.0,0.004
521.5,0.004
522.0,0.004
522.5,0.004
523.0,0.004
523.5,0.004
524.0,0.004
524.5,0.004
525.0,0.004
525.5,0.004
526.0,0.004
526.5,0.004
527.0,0.004
527.5,0.004
528.0,0.004
528.5,0.004
529.0,0.004
529.5,0.004
530.0,0.004
530.5,0.004
531.0,0.004
531.5,0.004
532.0,0.004
532.5,0.004
533.0,0.004
533.5,0.004
534.0,0.004
534.5,0.004
535.0,0.004
535.5,0.004
536.0,0.004
536.5,0.004
537.0,0.004
537.5,0.004
538.0,0.004
538.5,0.004
539.0,0.004
539.5,0.004
540.0,0.004
540.5,0.004
541.0,0.004
541.5,0.004
542.0,0.004
542.5,0.004
543.0,0.004
543.5,0.004
544.0,0.004
544.5,0.004
545.0,0.004
545.5,0.004
546.0,0.004
546.5,0.004
547.0,0.004
547.5,0.004
548.0,0.004
548.5,0.004
549.0,0.004
549.5,0.005
550.0,0.005
550.5,0.004
551.0,0.004
551.5,0.004
552.0,0.005
552.5,0.005
553.0,0.004
553.5,0.004
554.0,0.004
554.5,0.004
555.0,0.005
555.5,0.004
556.0,0.004
556.5,0.005
557.0,0.005
557.5,0.005
558.0,0.005
558.5,0.005
559.0,0.005
559.5,0.005
560.0,0.005
560.5,0.005
561.0,0.005
561.5,0.005
562.0,0.005
562.5,0.005
563.0,0.005
563.5,0.005
564.0,0.005
564.5,0.005
565.0,0.005
565.5,0.005
566.0,0.005
566.5,0.005
567.0,0.005
567.5,0.005
568.0,0.005
568.5,0.005
569.0,0.005
569.5,0.005
570.0,0.005
570.5,0.005
571.0,0.005
571.5,0.005
572.0,0.005
572.5,0.005
573.0,0.005
573.5,0.005
574.0,0.005
574.5,0.005
575.0,0.005
575.5,0.005
576.0,0.005
576.5,0.005
577.0,0.005
577.5,0.005
578.0,0.005
578.5,0.005
579.0,0.005
579.5,0.005
580.0,0.005
580.5,0.005
581.0,0.005
581.5,0.005
582.0,0.005
582.5,0.005
583.0,0.005
583.5,0.005
584.0,0.005
584.5,0.005
585.0,0.005
585.5,0.005
586.0,0.005
586.5,0.005
587.0,0.005
587.5,0.005
588.0,0.005
588.5,0.005
589.0,0.005
589.5,0.005
590.0,0.005
590.5,0.005
591.0,0.005
591.5,0.005
592.0,0.005
592.5,0.005
593.0,0.005
593.5,0.005
594.0,0.005
594.5,0.005
595.0,0.005
595.5,0.005
596.0,0.005
596.5,0.005
597.0,0.005
597.5,0.005
598.0,0.005
598.5,0.005
599.0,0.005
599.5,0.005
600.0,0.005
600.5,0.005
601.0,0.005
601.5,0.005
602.0,0.005
602.5,0.005
603.0,0.005
603.5,0.005
604.0,0.005
604.5,0.005
605.0,0.005
605.5,0.005
606.0,0.005
606.5,0.005
607.0,0.005
607.5,0.005
608.0,0.005
608.5,0.005
609.0,0.005
609.5,0.005
610.0,0.005
610.5,0.005
611.0,0.005
611.5,0.005
612.0,0.005
612.5,0.005
613.0,0.005
613.5,0.005
614.0,0.005
614.5,0.005
615.0,0.005
615.5,0.005
616.0,0.005
616.5,0.005
617.0,0.005
617.5,0.005
618.0,0.005
618.5,0.005
619.0,0.005
619.5,0.005
620.0,0.005
620.5,0.005
621.0,0.005
621.5,0.005
622.0,0.005
622.5,0.005
623.0,0.005
623.5,0.005
624.0,0.005
624.5,0.005
625.0,0.005
625.5,0.005
626.0,0.005
626.5,0.005
627.0,0.005
627.5,0.005
628.0,0.005
628.5,0.005
629.0,0.005
629.5,0.005
630.0,0.005
630.5,0.005
631.0,0.005
631.5,0.005
632.0,0.005
632.5,0.005
633.0,0.005
633.5,0.005
634.0,0.005
634.5,0.005
635.0,0.005
635.5,0.005
636.0,0.005
636.5,0.005
637.0,0.005
637.5,0.005
638.0,0.005
638.5,0.005
639.0,0.005
639.5,0.005
640.0,0.005
640.5,0.005
641.0,0.005
641.5,0.005
642.0,0.005
642.5,0.005
643.0,0.005
643.5,0.005
644.0,0.005
644.5,0.005
645.0,0.005
645.5,0.005
646.0,0.005
646.5,0.005
647.0,0.005
647.5,0.005
648.0,0.005
648.5,0.005
649.0,0.005
649.5,0.005
650.0,0.005
650.5,0.005
651.0,0.005
651.5,0.005
652.0,0.005
652.5,0.006
653.0,0.006
653.5,0.006
654.0,0.006
654.5,0.006
655.0,0.005
655.5,0.005
656.0,0.005
656.5,0.005
657.0,0.006
657.5,0.006
658.0,0.006
658.5,0.006
659.0,0.006
659.5,0.006
660.0,0.006
660.5,0.006
661.0,0.006
661.5,0.006
662.0,0.006
662.5,0.006
663.0,0.006
663.5,0.006
664.0,0.006
664.5,0.006
665.0,0.006
665.5,0.006
666.0,0.006
666.5,0.006
667.0,0.006
667.5,0.006
668.0,0.006
668.5,0.006
669.0,0.006
669.5,0.006
670.0,0.006
670.5,0.006
671.0,0.006
671.5,0.006
672.0,0.006
672.5,0.006
673.0,0.006
673.5,0.006
674.0,0.006
674.5,0.006
675.0,0.006
675.5,0.006
676.0,0.006
676.5,0.006
677.0,0.006
677.5,0.006
678.0,0.006
678.5,0.006
679.0,0.006
679.5,0.006
680.0,0.006
680.5,0.006
681.0,0.006
681.5,0.006
682.0,0.006
682.5,0.006
683.0,0.006
683.5,0.006
684.0,0.006
684.5,0.006
685.0,0.006
685.5,0.006
686.0,0.006
686.5,0.006
687.0,0.006
687.5,0.006
688.0,0.006
688.5,0.006
689.0,0.006
689.5,0.006
690.0,0.006
690.5,0.006
691.0,0.006
691.5,0.006
692.0,0.006
692.5,0.006
693.0,0.006
693.5,0.006
694.0,0.006
694.5,0.006
695.0,0.006
695.5,0.006
696.0,0.006
696.5,0.006
697.0,0.006
697.5,0.006
698.0,0.006
698.5,0.006
699.0,0.006
699.5,0.006
700.0,0.006
700.5,0.006
701.0,0.006
701.5,0.006
702.0,0.006
702.5,0.006
703.0,0.006
703.5,0.006
704.0,0.006
704.5,0.006
705.0,0.006
705.5,0.006
706.0,0.006
706.5,0.006
707.0,0.006
707.5,0.006
708.0,0.006
708.5,0.006
709.0,0.006
709.5,0.006
710.0,0.006
710.5,0.006
711.0,0.006
711.5,0.006
712.0,0.006
712.5,0.006
713.0,0.006
713.5,0.006
714.0,0.006
714.5,0.006
715.0,0.006
715.5,0.006
716.0,0.006
716.5,0.006
717.0,0.006
717.5,0.006
718.0,0.006
718.5,0.006
719.0,0.006
719.5,0.006
720.0,0.006
720.5,0.006
721.0,0.006
721.5,0.006
722.0,0.006
722.5,0.006
723.0,0.006
723.5,0.006
724.0,0.006
724.5,0.006
725.0,0.006
725.5,0.006
726.0,0.006
726.5,0.006
727.0,0.006
727.5,0.006
728.0,0.006
728.5,0.006
729.0,0.006
729.5,0.006
730.0,0.006
730.5,0.006
731.0,0.006
731.5,0.006
732.0,0.006
732.5,0.006
733.0,0.006
733.5,0.006
734.0,0.006
734.5,0.006
735.0,0.006
735.5,0.006
736.0,0.006
736.5,0.006
737.0,0.006
737.5,0.006
738.0,0.006
738.5,0.006
739.0,0.005
739.5,0.006
740.0,0.006
740.5,0.006
741.0,0.005
741.5,0.005
742.0,0.005
742.5,0.006
743.0,0.006
743.5,0.006
744.0,0.005
744.5,0.005
745.0,0.005
745.5,0.005
746.0,0.006
746.5,0.006
747.0,0.006
747.5,0.006
748.0,0.006
748.5,0.005
749.0,0.005
749.5,0.005
750.0,0.005
750.5,0.005
751.0,0.005
751.5,0.005
752.0,0.005
752.5,0.005
753.0,0.006
753.5,0.006
754.0,0.006
754.5,0.005
755.0,0.005
755.5,0.005
756.0,0.005
756.5,0.005
757.0,0.005
757.5,0.005
758.0,0.005
758.5,0.005
759.0,0.005
759.5,0.005
760.0,0.005
760.5,0.005
761.0,0.005
761.5,0.005
762.0,0.005
762.5,0.005
763.0,0.005
763.5,0.005
764.0,0.005
764.5,0.005
765.0,0.005
765.5,0.005
766.0,0.005
766.5,0.005
767.0,0.005
767.5,0.005
768.0,0.005
768.5,0.005
769.0,0.005
769.5,0.005
770.0,0.005
770.5,0.005
771.0,0.005
771.5,0.005
772.0,0.005
772.5,0.005
773.0,0.005
773.5,0.005
774.0,0.005
774.5,0.005
775.0,0.005
775.5,0.005
776.0,0.005
776.5,0.005
777.0,0.005
777.5,0.005
778.0,0.005
778.5,0.005
779.0,0.005
779.5,0.005
780.0,0.005
780.5,0.005
781.0,0.005
781.5,0.005
782.0,0.005
782.5,0.005
783.0,0.005
783.5,0.005
784.0,0.005
784.5,0.005
785.0,0.005
785.5,0.005
786.0,0.005
786.5,0.005
787.0,0.005
787.5,0.005
788.0,0.005
788.5,0.005
789.0,0.005
789.5,0.005
790.0,0.005
790.5,0.005
791.0,0.005
791.5,0.005
792.0,0.005
792.5,0.005
793.0,0.005
793.5,0.005
794.0,0.005
794.5,0.005
795.0,0.005
795.5,0.005
796.0,0.005
796.5,0.005
797.0,0.005
797.5,0.005
798.0,0.005
798.5,0.005
799.0,0.005
799.5,0.005
800.0,0.005
800.5,0.005
801.0,0.005
801.5,0.005
802.0,0.005
802.5,0.005
803.0,0.005
803.5,0.005
804.0,0.005
804.5,0.005
805.0,0.005
805.5,0.005
806.0,0.005
806.5,0.005
807.0,0.005
807.5,0.005
808.0,0.005
808.5,0.005
809.0,0.005
809.5,0.005
810.0,0.005
810.5,0.005
811.0,0.005
811.5,0.005
812.0,0.005
812.5,0.005
813.0,0.005
813.5,0.005
814.0,0.005
814.5,0.005
815.0,0.005
815.5,0.005
816.0,0.005
816.5,0.005
817.0,0.005
817.5,0.005
818.0,0.005
818.5,0.005
819.0,0.005
819.5,0.005
820.0,0.005
820.5,0.005
821.0,0.005
821.5,0.005
822.0,0.005
822.5,0.005
823.0,0.005
823.5,0.005
824.0,0.005
824.5,0.005
825.0,0.005
825.5,0.005
826.0,0.005
826.5,0.005
827.0,0.005
827.5,0.005
828.0,0.005
828.5,0.005
829.0,0.005
829.5,0.005
830.0,0.005
830.5,0.005
831.0,0.005
831.5,0.005
832.0,0.005
832.5,0.005
833.0,0.005
833.5,0.005
834.0,0.005
834.5,0.005
835.0,0.005
835.5,0.005
836.0,0.005
836.5,0.005
837.0,0.005
837.5,0.005
838.0,0.005
838.5,0.005
839.0,0.005
839.5,0.005
840.0,0.005
840.5,0.005
841.0,0.005
841.5,0.005
842.0,0.005
842.5,0.005
843.0,0.005
843.5,0.005
844.0,0.005
844.5,0.005
845.0,0.004
845.5,0.005
846.0,0.005
846.5,0.005
847.0,0.005
847.5,0.005
848.0,0.005
848.5,0.004
849.0,0.005
849.5,0.005
850.0,0.005
850.5,0.005
851.0,0.005
851.5,0.005
852.0,0.005
852.5,0.004
853.0,0.004
853.5,0.005
854.0,0.005
854.5,0.005
855.0,0.005
855.5,0.005
856.0,0.005
856.5,0.005
857.0,0.005
857.5,0.005
858.0,0.005
858.5,0.005
859.0,0.005
859.5,0.005
860.0,0.005
860.5,0.005
861.0,0.005
861.5,0.005
862.0,0.005
862.5,0.005
863.0,0.005
863.5,0.004
864.0,0.005
864.5,0.005
865.0,0.005
865.5,0.005
866.0,0.004
866.5,0.004
867.0,0.004
867.5,0.005
868.0,0.004
868.5,0.005
869.0,0.005
869.5,0.005
870.0,0.004
870.5,0.004
871.0,0.004
871.5,0.005
872.0,0.005
872.5,0.005
873.0,0.004
873.5,0.004
874.0,0.003
874.5,0.004
875.0,0.004
875.5,0.005
876.0,0.004
876.5,0.004
877.0,0.004
877.5,0.004
878.0,0.004
878.5,0.004
879.0,0.004
879.5,0.004
880.0,0.003
880.5,0.003
881.0,0.003
881.5,0.005
882.0,0.004
882.5,0.004
883.0,0.004
883.5,0.005
884.0,0.006
884.5,0.005
885.0,0.005
885.5,0.005
886.0,0.005
886.5,0.005
887.0,0.003
887.5,0.002
888.0,0.002
888.5,0.003
889.0,0.004
889.5,0.003
890.0,0.003
890.5,0.003
891.0,0.004
891.5,0.004
892.0,0.004
892.5,0.003
893.0,0.004
893.5,0.003
894.0,0.003
894.5,0.003
895.0,0.005
895.5,0.005
896.0,0.006
896.5,0.004
897.0,0.007
897.5,0.005
898.0,0.005
898.5,0.002
899.0,0.002
899.5,0.003
900.0,0.003